Wavelength (Angstroms)     Irradiance (Watts/m2/Angstrom)
      3967.0000                     5.989852e-02
      3967.0100                     5.755219e-02
      3967.0200                     5.443909e-02
      3967.0300                     5.127948e-02
      3967.0400                     4.921188e-02
      3967.0500                     4.891012e-02
      3967.0600                     5.035102e-02
      3967.0700                     5.276783e-02
      3967.0800                     5.513819e-02
      3967.0900                     5.688122e-02
      3967.1000                     5.771806e-02
      3967.1100                     5.741635e-02
      3967.1200                     5.574370e-02
      3967.1300                     5.244449e-02
      3967.1400                     4.723983e-02
      3967.1500                     4.050149e-02
      3967.1600                     3.336805e-02
      3967.1700                     2.714075e-02
      3967.1800                     2.281882e-02
      3967.1900                     2.086704e-02
      3967.2000                     2.154105e-02
      3967.2100                     2.488739e-02
      3967.2200                     3.065049e-02
      3967.2300                     3.778468e-02
      3967.2400                     4.480278e-02
      3967.2500                     5.042668e-02
      3967.2600                     5.433102e-02
      3967.2700                     5.679463e-02
      3967.2800                     5.825901e-02
      3967.2900                     5.914244e-02
      3967.3000                     5.963082e-02
      3967.3100                     5.986358e-02
      3967.3200                     6.000339e-02
      3967.3300                     6.002700e-02
      3967.3400                     5.995766e-02
      3967.3500                     5.986507e-02
      3967.3600                     5.974925e-02
      3967.3700                     5.958694e-02
      3967.3800                     5.940139e-02
      3967.3900                     5.916936e-02
      3967.4000                     5.896056e-02
      3967.4100                     5.875176e-02
      3967.4200                     5.856621e-02
      3967.4300                     5.838064e-02
      3967.4400                     5.817184e-02
      3967.4500                     5.798627e-02
      3967.4600                     5.784719e-02
      3967.4700                     5.768486e-02
      3967.4800                     5.747604e-02
      3967.4900                     5.724398e-02
      3967.5000                     5.696544e-02
      3967.5100                     5.671013e-02
      3967.5200                     5.640834e-02
      3967.5300                     5.601357e-02
      3967.5400                     5.554908e-02
      3967.5500                     5.494512e-02
      3967.5600                     5.406224e-02
      3967.5700                     5.262153e-02
      3967.5800                     5.022784e-02
      3967.5900                     4.662548e-02
      3967.6000                     4.209336e-02
      3967.6100                     3.751469e-02
      3967.6200                     3.405165e-02
      3967.6300                     3.265725e-02
      3967.6400                     3.363369e-02
      3967.6500                     3.637667e-02
      3967.6600                     3.979377e-02
      3967.6700                     4.276927e-02
      3967.6800                     4.474530e-02
      3967.6900                     4.521047e-02
      3967.7000                     4.383932e-02
      3967.7100                     4.051559e-02
      3967.7200                     3.579713e-02
      3967.7300                     3.063696e-02
      3967.7400                     2.638328e-02
      3967.7500                     2.394268e-02
      3967.7600                     2.373362e-02
      3967.7700                     2.591886e-02
      3967.7800                     3.017299e-02
      3967.7900                     3.558947e-02
      3967.8000                     4.079681e-02
      3967.8100                     4.491164e-02
      3967.8200                     4.760849e-02
      3967.8300                     4.909656e-02
      3967.8400                     4.979427e-02
      3967.8500                     5.005029e-02
      3967.8600                     5.005060e-02
      3967.8700                     4.984169e-02
      3967.8800                     4.942355e-02
      3967.8900                     4.872644e-02
      3967.9000                     4.758761e-02
      3967.9100                     4.598382e-02
      3967.9200                     4.407779e-02
      3967.9300                     4.247396e-02
      3967.9400                     4.175353e-02
      3967.9500                     4.217226e-02
      3967.9600                     4.349767e-02
      3967.9700                     4.512534e-02
      3967.9800                     4.647404e-02
      3967.9900                     4.733454e-02
      3968.0000                     4.777656e-02
      3968.0100                     4.793959e-02
      3968.0200                     4.791663e-02
      3968.0300                     4.780067e-02
      3968.0400                     4.766146e-02
      3968.0500                     4.745250e-02
      3968.0600                     4.717379e-02
      3968.0700                     4.689507e-02
      3968.0800                     4.663960e-02
      3968.0900                     4.640738e-02
      3968.1000                     4.622166e-02
      3968.1100                     4.601268e-02
      3968.1200                     4.587345e-02
      3968.1300                     4.571097e-02
      3968.1400                     4.557174e-02
      3968.1500                     4.547901e-02
      3968.1600                     4.533978e-02
      3968.1700                     4.517729e-02
      3968.1800                     4.496830e-02
      3968.1900                     4.475931e-02
      3968.2000                     4.450381e-02
      3968.2100                     4.429481e-02
      3968.2200                     4.408580e-02
      3968.2300                     4.390005e-02
      3968.2400                     4.373755e-02
      3968.2500                     4.362155e-02
      3968.2600                     4.345904e-02
      3968.2700                     4.331979e-02
      3968.2800                     4.315728e-02
      3968.2900                     4.301802e-02
      3968.3000                     4.290201e-02
      3968.3100                     4.273950e-02
      3968.3200                     4.250722e-02
      3968.3300                     4.229819e-02
      3968.3400                     4.206591e-02
      3968.3500                     4.185688e-02
      3968.3600                     4.167110e-02
      3968.3700                     4.148532e-02
      3968.3800                     4.132279e-02
      3968.3900                     4.111374e-02
      3968.4000                     4.092796e-02
      3968.4100                     4.074216e-02
      3968.4200                     4.055637e-02
      3968.4300                     4.037057e-02
      3968.4400                     4.018478e-02
      3968.4500                     3.999897e-02
      3968.4600                     3.983643e-02
      3968.4700                     3.960411e-02
      3968.4800                     3.932528e-02
      3968.4900                     3.874412e-02
      3968.5000                     3.760482e-02
      3968.5100                     3.560502e-02
      3968.5200                     3.279124e-02
      3968.5300                     2.965183e-02
      3968.5400                     2.707054e-02
      3968.5500                     2.581484e-02
      3968.5600                     2.628013e-02
      3968.5700                     2.825713e-02
      3968.5800                     3.093185e-02
      3968.5900                     3.344382e-02
      3968.6000                     3.516506e-02
      3968.6100                     3.609557e-02
      3968.6200                     3.642139e-02
      3968.6300                     3.646812e-02
      3968.6400                     3.642183e-02
      3968.6500                     3.632901e-02
      3968.6600                     3.621294e-02
      3968.6700                     3.609687e-02
      3968.6800                     3.593427e-02
      3968.6900                     3.574842e-02
      3968.7000                     3.553931e-02
      3968.7100                     3.533019e-02
      3968.7200                     3.514433e-02
      3968.7300                     3.493521e-02
      3968.7400                     3.470283e-02
      3968.7500                     3.447044e-02
      3968.7600                     3.428457e-02
      3968.7700                     3.407544e-02
      3968.7800                     3.384305e-02
      3968.7900                     3.363391e-02
      3968.8000                     3.337825e-02
      3968.8100                     3.314585e-02
      3968.8200                     3.295997e-02
      3968.8300                     3.279734e-02
      3968.8400                     3.261145e-02
      3968.8500                     3.237904e-02
      3968.8600                     3.216988e-02
      3968.8700                     3.191421e-02
      3968.8800                     3.172831e-02
      3968.8900                     3.151915e-02
      3968.9000                     3.133324e-02
      3968.9100                     3.114734e-02
      3968.9200                     3.096143e-02
      3968.9300                     3.077552e-02
      3968.9400                     3.058961e-02
      3968.9500                     3.033391e-02
      3968.9600                     3.007821e-02
      3968.9700                     2.982250e-02
      3968.9800                     2.954353e-02
      3968.9900                     2.931108e-02
      3969.0000                     2.907862e-02
      3969.0100                     2.882290e-02
      3969.0200                     2.859044e-02
      3969.0300                     2.835798e-02
      3969.0400                     2.798594e-02
      3969.0500                     2.742778e-02
      3969.0600                     2.661371e-02
      3969.0700                     2.559026e-02
      3969.0800                     2.463659e-02
      3969.0900                     2.400861e-02
      3969.1000                     2.393896e-02
      3969.1100                     2.428807e-02
      3969.1200                     2.480004e-02
      3969.1300                     2.519569e-02
      3969.1400                     2.533543e-02
      3969.1500                     2.531231e-02
      3969.1600                     2.517287e-02
      3969.1700                     2.496364e-02
      3969.1800                     2.470787e-02
      3969.1900                     2.447536e-02
      3969.2000                     2.421958e-02
      3969.2100                     2.396381e-02
      3969.2200                     2.370802e-02
      3969.2300                     2.349877e-02
      3969.2400                     2.331278e-02
      3969.2500                     2.315006e-02
      3969.2600                     2.303386e-02
      3969.2700                     2.296420e-02
      3969.2800                     2.284801e-02
      3969.2900                     2.275507e-02
      3969.3000                     2.268541e-02
      3969.3100                     2.261574e-02
      3969.3200                     2.256935e-02
      3969.3300                     2.261602e-02
      3969.3400                     2.266269e-02
      3969.3500                     2.275589e-02
      3969.3600                     2.287237e-02
      3969.3700                     2.296558e-02
      3969.3800                     2.310533e-02
      3969.3900                     2.324508e-02
      3969.4000                     2.338483e-02
      3969.4100                     2.352458e-02
      3969.4200                     2.361780e-02
      3969.4300                     2.357140e-02
      3969.4400                     2.340866e-02
      3969.4500                     2.315284e-02
      3969.4600                     2.278067e-02
      3969.4700                     2.229214e-02
      3969.4800                     2.164073e-02
      3969.4900                     2.087296e-02
      3969.5000                     2.001210e-02
      3969.5100                     1.910469e-02
      3969.5200                     1.822053e-02
      3969.5300                     1.740618e-02
      3969.5400                     1.663836e-02
      3969.5500                     1.601016e-02
      3969.5600                     1.549830e-02
      3969.5700                     1.507952e-02
      3969.5800                     1.477708e-02
      3969.5900                     1.454446e-02
      3969.6000                     1.445146e-02
      3969.6100                     1.442828e-02
      3969.6200                     1.447491e-02
      3969.6300                     1.463790e-02
      3969.6400                     1.487070e-02
      3969.6500                     1.519660e-02
      3969.6600                     1.568540e-02
      3969.6700                     1.629058e-02
      3969.6800                     1.696558e-02
      3969.6900                     1.766385e-02
      3969.7000                     1.840868e-02
      3969.7100                     1.910698e-02
      3969.7200                     1.978201e-02
      3969.7300                     2.038723e-02
      3969.7400                     2.096918e-02
      3969.7500                     2.141150e-02
      3969.7600                     2.173746e-02
      3969.7700                     2.197033e-02
      3969.7800                     2.208683e-02
      3969.7900                     2.213351e-02
      3969.8000                     2.211037e-02
      3969.8100                     2.206395e-02
      3969.8200                     2.204081e-02
      3969.8300                     2.199439e-02
      3969.8400                     2.194797e-02
      3969.8500                     2.190156e-02
      3969.8600                     2.190169e-02
      3969.8700                     2.192509e-02
      3969.8800                     2.194850e-02
      3969.8900                     2.201846e-02
      3969.9000                     2.211169e-02
      3969.9100                     2.225148e-02
      3969.9200                     2.239127e-02
      3969.9300                     2.255433e-02
      3969.9400                     2.274068e-02
      3969.9500                     2.295030e-02
      3969.9600                     2.320647e-02
      3969.9700                     2.341610e-02
      3969.9800                     2.364901e-02
      3969.9900                     2.392847e-02
      3970.0000                     2.416138e-02
      3970.0100                     2.437102e-02
      3970.0200                     2.462722e-02
      3970.0300                     2.488341e-02
      3970.0400                     2.516289e-02
      3970.0500                     2.544237e-02
      3970.0600                     2.572186e-02
      3970.0700                     2.595479e-02
      3970.0800                     2.621100e-02
      3970.0900                     2.644394e-02
      3970.1000                     2.667688e-02
      3970.1100                     2.690983e-02
      3970.1200                     2.714278e-02
      3970.1300                     2.739900e-02
      3970.1400                     2.765524e-02
      3970.1500                     2.786491e-02
      3970.1600                     2.807459e-02
      3970.1700                     2.826099e-02
      3970.1800                     2.842412e-02
      3970.1900                     2.865708e-02
      3970.2000                     2.900645e-02
      3970.2100                     2.940238e-02
      3970.2200                     2.977504e-02
      3970.2300                     3.007785e-02
      3970.2400                     3.033412e-02
      3970.2500                     3.054382e-02
      3970.2600                     3.063713e-02
      3970.2700                     3.070715e-02
      3970.2800                     3.073062e-02
      3970.2900                     3.059112e-02
      3970.3000                     3.024209e-02
      3970.3100                     2.949727e-02
      3970.3200                     2.805400e-02
      3970.3300                     2.570274e-02
      3970.3400                     2.249003e-02
      3970.3500                     1.874181e-02
      3970.3600                     1.520307e-02
      3970.3700                     1.243260e-02
      3970.3800                     1.077964e-02
      3970.3900                     1.029078e-02
      3970.4000                     1.094275e-02
      3970.4100                     1.280542e-02
      3970.4200                     1.587882e-02
      3970.4300                     1.974387e-02
      3970.4400                     2.381852e-02
      3970.4500                     2.738098e-02
      3970.4600                     3.015185e-02
      3970.4700                     3.210784e-02
      3970.4800                     3.343520e-02
      3970.4900                     3.427361e-02
      3970.5000                     3.478606e-02
      3970.5100                     3.506568e-02
      3970.5200                     3.520559e-02
      3970.5300                     3.541536e-02
      3970.5400                     3.571827e-02
      3970.5500                     3.616089e-02
      3970.5600                     3.655695e-02
      3970.5700                     3.688316e-02
      3970.5800                     3.711623e-02
      3970.5900                     3.727945e-02
      3970.6000                     3.739610e-02
      3970.6100                     3.753603e-02
      3970.6200                     3.767597e-02
      3970.6300                     3.786248e-02
      3970.6400                     3.804900e-02
      3970.6500                     3.821223e-02
      3970.6600                     3.842203e-02
      3970.6700                     3.860855e-02
      3970.6800                     3.877178e-02
      3970.6900                     3.886516e-02
      3970.7000                     3.884211e-02
      3970.7100                     3.851633e-02
      3970.7200                     3.774809e-02
      3970.7300                     3.644424e-02
      3970.7400                     3.486093e-02
      3970.7500                     3.358034e-02
      3970.7600                     3.323123e-02
      3970.7700                     3.404649e-02
      3970.7800                     3.570013e-02
      3970.7900                     3.758666e-02
      3970.8000                     3.907732e-02
      3970.8100                     3.989264e-02
      3970.8200                     3.991617e-02
      3970.8300                     3.903145e-02
      3970.8400                     3.721517e-02
      3970.8500                     3.477008e-02
      3970.8600                     3.237153e-02
      3970.8700                     3.099767e-02
      3970.8800                     3.125404e-02
      3970.8900                     3.307079e-02
      3970.9000                     3.570270e-02
      3970.9100                     3.835792e-02
      3970.9200                     4.043094e-02
      3970.9300                     4.175870e-02
      3970.9400                     4.250423e-02
      3970.9500                     4.290041e-02
      3970.9600                     4.311028e-02
      3970.9700                     4.322700e-02
      3970.9800                     4.327384e-02
      3970.9900                     4.327409e-02
      3971.0000                     4.332094e-02
      3971.0100                     4.332119e-02
      3971.0200                     4.329816e-02
      3971.0300                     4.327513e-02
      3971.0400                     4.320551e-02
      3971.0500                     4.311260e-02
      3971.0600                     4.297311e-02
      3971.0700                     4.278703e-02
      3971.0800                     4.262424e-02
      3971.0900                     4.246145e-02
      3971.1000                     4.229866e-02
      3971.1100                     4.215915e-02
      3971.1200                     4.199636e-02
      3971.1300                     4.183356e-02
      3971.1400                     4.171734e-02
      3971.1500                     4.162442e-02
      3971.1600                     4.150820e-02
      3971.1700                     4.139198e-02
      3971.1800                     4.132235e-02
      3971.1900                     4.129930e-02
      3971.2000                     4.129955e-02
      3971.2100                     4.141626e-02
      3971.2200                     4.160286e-02
      3971.2300                     4.181275e-02
      3971.2400                     4.204594e-02
      3971.2500                     4.234902e-02
      3971.2600                     4.267539e-02
      3971.2700                     4.297847e-02
      3971.2800                     4.330485e-02
      3971.2900                     4.370113e-02
      3971.3000                     4.409740e-02
      3971.3100                     4.444709e-02
      3971.3200                     4.475019e-02
      3971.3300                     4.486693e-02
      3971.3400                     4.458765e-02
      3971.3500                     4.358621e-02
      3971.3600                     4.172280e-02
      3971.3700                     3.937016e-02
      3971.3800                     3.720385e-02
      3971.3900                     3.620234e-02
      3971.4000                     3.697133e-02
      3971.4100                     3.934780e-02
      3971.4200                     4.249308e-02
      3971.4300                     4.547532e-02
      3971.4400                     4.764220e-02
      3971.4500                     4.876074e-02
      3971.4600                     4.880763e-02
      3971.4700                     4.754986e-02
      3971.4800                     4.480104e-02
      3971.4900                     4.086401e-02
      3971.5000                     3.648428e-02
      3971.5100                     3.296651e-02
      3971.5200                     3.152223e-02
      3971.5300                     3.268733e-02
      3971.5400                     3.608907e-02
      3971.5500                     4.058589e-02
      3971.5600                     4.461678e-02
      3971.5700                     4.715661e-02
      3971.5800                     4.787916e-02
      3971.5900                     4.720377e-02
      3971.6000                     4.599250e-02
      3971.6100                     4.520059e-02
      3971.6200                     4.552705e-02
      3971.6300                     4.697190e-02
      3971.6400                     4.899925e-02
      3971.6500                     5.088683e-02
      3971.6600                     5.214533e-02
      3971.6700                     5.282134e-02
      3971.6800                     5.314786e-02
      3971.6900                     5.354428e-02
      3971.7000                     5.419701e-02
      3971.7100                     5.496626e-02
      3971.7200                     5.559570e-02
      3971.7300                     5.587565e-02
      3971.7400                     5.566627e-02
      3971.7500                     5.494426e-02
      3971.7600                     5.396593e-02
      3971.7700                     5.326721e-02
      3971.7800                     5.312771e-02
      3971.7900                     5.378048e-02
      3971.8000                     5.496920e-02
      3971.8100                     5.627444e-02
      3971.8200                     5.734667e-02
      3971.8300                     5.813929e-02
      3971.8400                     5.865229e-02
      3971.8500                     5.902548e-02
      3971.8600                     5.932877e-02
      3971.8700                     5.960876e-02
      3971.8800                     5.984214e-02
      3971.8900                     6.009883e-02
      3971.9000                     6.033222e-02
      3971.9100                     6.054231e-02
      3971.9200                     6.077571e-02
      3971.9300                     6.098580e-02
      3971.9400                     6.121920e-02
      3971.9500                     6.145261e-02
      3971.9600                     6.168601e-02
      3971.9700                     6.187281e-02
      3971.9800                     6.208292e-02
      3971.9900                     6.229303e-02
      3972.0000                     6.250314e-02
