Wavelength (Angstroms)     Irradiance (Watts/m2/Angstrom)
      3933.0000                     4.102636e-02
      3933.0100                     4.084513e-02
      3933.0200                     4.068658e-02
      3933.0300                     4.048265e-02
      3933.0400                     4.032410e-02
      3933.0500                     4.012016e-02
      3933.0600                     3.984814e-02
      3933.0700                     3.937189e-02
      3933.0800                     3.850984e-02
      3933.0900                     3.705777e-02
      3933.1000                     3.499295e-02
      3933.1100                     3.265579e-02
      3933.1200                     3.074977e-02
      3933.1300                     2.988763e-02
      3933.1400                     3.043250e-02
      3933.1500                     3.202131e-02
      3933.1600                     3.406402e-02
      3933.1700                     3.590252e-02
      3933.1800                     3.719637e-02
      3933.1900                     3.787748e-02
      3933.2000                     3.810470e-02
      3933.2100                     3.819576e-02
      3933.2200                     3.817334e-02
      3933.2300                     3.808284e-02
      3933.2400                     3.794695e-02
      3933.2500                     3.783374e-02
      3933.2600                     3.774324e-02
      3933.2700                     3.760734e-02
      3933.2800                     3.744874e-02
      3933.2900                     3.726744e-02
      3933.3000                     3.704074e-02
      3933.3100                     3.681405e-02
      3933.3200                     3.651926e-02
      3933.3300                     3.613367e-02
      3933.3400                     3.563460e-02
      3933.3500                     3.506742e-02
      3933.3600                     3.463643e-02
      3933.3700                     3.454589e-02
      3933.3800                     3.472772e-02
      3933.3900                     3.500035e-02
      3933.4000                     3.522759e-02
      3933.4100                     3.531864e-02
      3933.4200                     3.531890e-02
      3933.4300                     3.522836e-02
      3933.4400                     3.509242e-02
      3933.4500                     3.491109e-02
      3933.4600                     3.470705e-02
      3933.4700                     3.454841e-02
      3933.4800                     3.438976e-02
      3933.4900                     3.423111e-02
      3933.5000                     3.404977e-02
      3933.5100                     3.389111e-02
      3933.5200                     3.375516e-02
      3933.5300                     3.364190e-02
      3933.5400                     3.357405e-02
      3933.5500                     3.348349e-02
      3933.5600                     3.339293e-02
      3933.5700                     3.325697e-02
      3933.5800                     3.312100e-02
      3933.5900                     3.293963e-02
      3933.6000                     3.273556e-02
      3933.6100                     3.257689e-02
      3933.6200                     3.246362e-02
      3933.6300                     3.232764e-02
      3933.6400                     3.219166e-02
      3933.6500                     3.207839e-02
      3933.6600                     3.196511e-02
      3933.6700                     3.187453e-02
      3933.6800                     3.173854e-02
      3933.6900                     3.142093e-02
      3933.7000                     3.083088e-02
      3933.7100                     2.974135e-02
      3933.7200                     2.826584e-02
      3933.7300                     2.656327e-02
      3933.7400                     2.520123e-02
      3933.7500                     2.470193e-02
      3933.7600                     2.524701e-02
      3933.7700                     2.647323e-02
      3933.7800                     2.790380e-02
      3933.7900                     2.899383e-02
      3933.8000                     2.962977e-02
      3933.8100                     2.983433e-02
      3933.8200                     2.981185e-02
      3933.8300                     2.967583e-02
      3933.8400                     2.949441e-02
      3933.8500                     2.931297e-02
      3933.8600                     2.908613e-02
      3933.8700                     2.888199e-02
      3933.8800                     2.870055e-02
      3933.8900                     2.854181e-02
      3933.9000                     2.842849e-02
      3933.9100                     2.829246e-02
      3933.9200                     2.815642e-02
      3933.9300                     2.802039e-02
      3933.9400                     2.788435e-02
      3933.9500                     2.772560e-02
      3933.9600                     2.761227e-02
      3933.9700                     2.747622e-02
      3933.9800                     2.731747e-02
      3933.9900                     2.704517e-02
      3934.0000                     2.665933e-02
      3934.0100                     2.615994e-02
      3934.0200                     2.561513e-02
      3934.0300                     2.518385e-02
      3934.0400                     2.504778e-02
      3934.0500                     2.516151e-02
      3934.0600                     2.532066e-02
      3934.0700                     2.545710e-02
      3934.0800                     2.550270e-02
      3934.0900                     2.543476e-02
      3934.1000                     2.527597e-02
      3934.1100                     2.509448e-02
      3934.1200                     2.489027e-02
      3934.1300                     2.466335e-02
      3934.1400                     2.445914e-02
      3934.1500                     2.427763e-02
      3934.1600                     2.409612e-02
      3934.1700                     2.389190e-02
      3934.1800                     2.366496e-02
      3934.1900                     2.348344e-02
      3934.2000                     2.332463e-02
      3934.2100                     2.316582e-02
      3934.2200                     2.298430e-02
      3934.2300                     2.282548e-02
      3934.2400                     2.264395e-02
      3934.2500                     2.239428e-02
      3934.2600                     2.216732e-02
      3934.2700                     2.196307e-02
      3934.2800                     2.178153e-02
      3934.2900                     2.157727e-02
      3934.3000                     2.141843e-02
      3934.3100                     2.119146e-02
      3934.3200                     2.100991e-02
      3934.3300                     2.082835e-02
      3934.3400                     2.066950e-02
      3934.3500                     2.048795e-02
      3934.3600                     2.035181e-02
      3934.3700                     2.023839e-02
      3934.3800                     2.012496e-02
      3934.3900                     2.003425e-02
      3934.4000                     1.998897e-02
      3934.4100                     1.992097e-02
      3934.4200                     1.985297e-02
      3934.4300                     1.980768e-02
      3934.4400                     1.980783e-02
      3934.4500                     1.987612e-02
      3934.4600                     1.994441e-02
      3934.4700                     2.003542e-02
      3934.4800                     2.017186e-02
      3934.4900                     2.033102e-02
      3934.5000                     2.049018e-02
      3934.5100                     2.064935e-02
      3934.5200                     2.080852e-02
      3934.5300                     2.099040e-02
      3934.5400                     2.114958e-02
      3934.5500                     2.137690e-02
      3934.5600                     2.164967e-02
      3934.5700                     2.194515e-02
      3934.5800                     2.221792e-02
      3934.5900                     2.244526e-02
      3934.6000                     2.262717e-02
      3934.6100                     2.274093e-02
      3934.6200                     2.271837e-02
      3934.6300                     2.253679e-02
      3934.6400                     2.219618e-02
      3934.6500                     2.171924e-02
      3934.6600                     2.115142e-02
      3934.6700                     2.049272e-02
      3934.6800                     1.969769e-02
      3934.6900                     1.890265e-02
      3934.7000                     1.810760e-02
      3934.7100                     1.733526e-02
      3934.7200                     1.669922e-02
      3934.7300                     1.613134e-02
      3934.7400                     1.563161e-02
      3934.7500                     1.522275e-02
      3934.7600                     1.490477e-02
      3934.7700                     1.472312e-02
      3934.7800                     1.458690e-02
      3934.7900                     1.454156e-02
      3934.8000                     1.456439e-02
      3934.8100                     1.465538e-02
      3934.8200                     1.479182e-02
      3934.8300                     1.501914e-02
      3934.8400                     1.533736e-02
      3934.8500                     1.570103e-02
      3934.8600                     1.617831e-02
      3934.8700                     1.674649e-02
      3934.8800                     1.738285e-02
      3934.8900                     1.804194e-02
      3934.9000                     1.870103e-02
      3934.9100                     1.929197e-02
      3934.9200                     1.983747e-02
      3934.9300                     2.029209e-02
      3934.9400                     2.070126e-02
      3934.9500                     2.097410e-02
      3934.9600                     2.113332e-02
      3934.9700                     2.117892e-02
      3934.9800                     2.117908e-02
      3934.9900                     2.113378e-02
      3935.0000                     2.104304e-02
      3935.0100                     2.090684e-02
      3935.0200                     2.072519e-02
      3935.0300                     2.049809e-02
      3935.0400                     2.029371e-02
      3935.0500                     2.008933e-02
      3935.0600                     1.990767e-02
      3935.0700                     1.974874e-02
      3935.0800                     1.958980e-02
      3935.0900                     1.947631e-02
      3935.1000                     1.940827e-02
      3935.1100                     1.943114e-02
      3935.1200                     1.947674e-02
      3935.1300                     1.954506e-02
      3935.1400                     1.963611e-02
      3935.1500                     1.970443e-02
      3935.1600                     1.977276e-02
      3935.1700                     1.993200e-02
      3935.1800                     2.009123e-02
      3935.1900                     2.027320e-02
      3935.2000                     2.040972e-02
      3935.2100                     2.056897e-02
      3935.2200                     2.077367e-02
      3935.2300                     2.093292e-02
      3935.2400                     2.106944e-02
      3935.2500                     2.122870e-02
      3935.2600                     2.136523e-02
      3935.2700                     2.150176e-02
      3935.2800                     2.159283e-02
      3935.2900                     2.175209e-02
      3935.3000                     2.188863e-02
      3935.3100                     2.209336e-02
      3935.3200                     2.225263e-02
      3935.3300                     2.245736e-02
      3935.3400                     2.266210e-02
      3935.3500                     2.284411e-02
      3935.3600                     2.302612e-02
      3935.3700                     2.320813e-02
      3935.3800                     2.339015e-02
      3935.3900                     2.357217e-02
      3935.4000                     2.377692e-02
      3935.4100                     2.395895e-02
      3935.4200                     2.411824e-02
      3935.4300                     2.432300e-02
      3935.4400                     2.450504e-02
      3935.4500                     2.466434e-02
      3935.4600                     2.484638e-02
      3935.4700                     2.502842e-02
      3935.4800                     2.516500e-02
      3935.4900                     2.530158e-02
      3935.5000                     2.546089e-02
      3935.5100                     2.559747e-02
      3935.5200                     2.575679e-02
      3935.5300                     2.596158e-02
      3935.5400                     2.616637e-02
      3935.5500                     2.637117e-02
      3935.5600                     2.655323e-02
      3935.5700                     2.675803e-02
      3935.5800                     2.698557e-02
      3935.5900                     2.721311e-02
      3935.6000                     2.739518e-02
      3935.6100                     2.753179e-02
      3935.6200                     2.766840e-02
      3935.6300                     2.780501e-02
      3935.6400                     2.796436e-02
      3935.6500                     2.814645e-02
      3935.6600                     2.828307e-02
      3935.6700                     2.846516e-02
      3935.6800                     2.864726e-02
      3935.6900                     2.882935e-02
      3935.7000                     2.896598e-02
      3935.7100                     2.907987e-02
      3935.7200                     2.926198e-02
      3935.7300                     2.937587e-02
      3935.7400                     2.951251e-02
      3935.7500                     2.964915e-02
      3935.7600                     2.980852e-02
      3935.7700                     2.996790e-02
      3935.7800                     3.012728e-02
      3935.7900                     3.030940e-02
      3935.8000                     3.049153e-02
      3935.8100                     3.069639e-02
      3935.8200                     3.085578e-02
      3935.8300                     3.103792e-02
      3935.8400                     3.126553e-02
      3935.8500                     3.149314e-02
      3935.8600                     3.174350e-02
      3935.8700                     3.201660e-02
      3935.8800                     3.228970e-02
      3935.8900                     3.251733e-02
      3935.9000                     3.274496e-02
      3935.9100                     3.290438e-02
      3935.9200                     3.299558e-02
      3935.9300                     3.299582e-02
      3935.9400                     3.301880e-02
      3935.9500                     3.306452e-02
      3935.9600                     3.311024e-02
      3935.9700                     3.315597e-02
      3935.9800                     3.322443e-02
      3935.9900                     3.329289e-02
      3936.0000                     3.338410e-02
      3936.0100                     3.352079e-02
      3936.0200                     3.365749e-02
      3936.0300                     3.386241e-02
      3936.0400                     3.402185e-02
      3936.0500                     3.415855e-02
      3936.0600                     3.434074e-02
      3936.0700                     3.447744e-02
      3936.0800                     3.461415e-02
      3936.0900                     3.472811e-02
      3936.1000                     3.479660e-02
      3936.1100                     3.491056e-02
      3936.1200                     3.500179e-02
      3936.1300                     3.513851e-02
      3936.1400                     3.529797e-02
      3936.1500                     3.543469e-02
      3936.1600                     3.554867e-02
      3936.1700                     3.570814e-02
      3936.1800                     3.584486e-02
      3936.1900                     3.600433e-02
      3936.2000                     3.611832e-02
      3936.2100                     3.623230e-02
      3936.2200                     3.636904e-02
      3936.2300                     3.650578e-02
      3936.2400                     3.664251e-02
      3936.2500                     3.680200e-02
      3936.2600                     3.693874e-02
      3936.2700                     3.707548e-02
      3936.2800                     3.718948e-02
      3936.2900                     3.730348e-02
      3936.3000                     3.741749e-02
      3936.3100                     3.746325e-02
      3936.3200                     3.753177e-02
      3936.3300                     3.762303e-02
      3936.3400                     3.771429e-02
      3936.3500                     3.782830e-02
      3936.3600                     3.789682e-02
      3936.3700                     3.787434e-02
      3936.3800                     3.762440e-02
      3936.3900                     3.689675e-02
      3936.4000                     3.571413e-02
      3936.4100                     3.430401e-02
      3936.4200                     3.316685e-02
      3936.4300                     3.287137e-02
      3936.4400                     3.357681e-02
      3936.4500                     3.503297e-02
      3936.4600                     3.662565e-02
      3936.4700                     3.794536e-02
      3936.4800                     3.883285e-02
      3936.4900                     3.937912e-02
      3936.5000                     3.972065e-02
      3936.5100                     3.997118e-02
      3936.5200                     4.019897e-02
      3936.5300                     4.035852e-02
      3936.5400                     4.044981e-02
      3936.5500                     4.056386e-02
      3936.5600                     4.070066e-02
      3936.5700                     4.081471e-02
      3936.5800                     4.092876e-02
      3936.5900                     4.104281e-02
      3936.6000                     4.113412e-02
      3936.6100                     4.124817e-02
      3936.6200                     4.136223e-02
      3936.6300                     4.145354e-02
      3936.6400                     4.152210e-02
      3936.6500                     4.156791e-02
      3936.6600                     4.149995e-02
      3936.6700                     4.134099e-02
      3936.6800                     4.106826e-02
      3936.6900                     4.070452e-02
      3936.7000                     4.034077e-02
      3936.7100                     4.009078e-02
      3936.7200                     3.993180e-02
      3936.7300                     3.981833e-02
      3936.7400                     3.977311e-02
      3936.7500                     3.977340e-02
      3936.7600                     3.979644e-02
      3936.7700                     3.991050e-02
      3936.7800                     4.011558e-02
      3936.7900                     4.038893e-02
      3936.8000                     4.066228e-02
      3936.8100                     4.079910e-02
      3936.8200                     4.079940e-02
      3936.8300                     4.073143e-02
      3936.8400                     4.068622e-02
      3936.8500                     4.077753e-02
      3936.8600                     4.093712e-02
      3936.8700                     4.096018e-02
      3936.8800                     4.030056e-02
      3936.8900                     3.845761e-02
      3936.9000                     3.531755e-02
      3936.9100                     3.138096e-02
      3936.9200                     2.776291e-02
      3936.9300                     2.548745e-02
      3936.9400                     2.519179e-02
      3936.9500                     2.680772e-02
      3936.9600                     2.974359e-02
      3936.9700                     3.302086e-02
      3936.9800                     3.604785e-02
      3936.9900                     3.852869e-02
      3937.0000                     4.044063e-02
